2024/06/25	15:33
Amplitude: 2.00 V
Freq  (Hz) 	 Gain (dB)  	 Phase (deg)
  0.931             16.656            166.444
  1.676             16.636            160.949
  2.421             16.620            156.576
  3.912             16.578            149.328
  6.333             16.516            139.781
 10.058             16.397            127.655
 15.832             16.155            111.232
 25.146             15.065             93.628
 39.861             11.902             92.329
 63.144              7.921             91.356
100.024              3.948             91.026
158.511             -0.053             90.568
251.271             -4.033             90.289
398.047             -8.108             90.064
630.878            -12.139             89.813
1000.054            -16.044             89.608
1584.925            -19.958             90.007
2511.963            -24.730             88.212
3981.031            -29.401             87.471
6309.524            -32.423             83.362
9999.983            -36.613             87.043
15848.875            -41.245             64.001
25118.887            -43.777            108.950
39810.687            -40.839             84.523
63095.801            -38.594             30.294
100000.016            -40.500              7.031
